{
  "resourceType" : "Bundle",
  "id" : "Coverageeligibilityresponse-5b89921a-d227-43c9-a86b-0a7fdbefda0a",
  "meta" : {
    "lastUpdated" : "2025-09-11T15:50:30.131+05:30",
    "tag" : [ {
      "system" : "http://terminology.hl7.org/CodeSystem/v3-ObservationValue",
      "code" : "SUBSETTED",
      "display" : "subsetted"
    } ]
  },
  "type" : "collection",
  "timestamp" : "2025-09-11T15:50:30.131+05:30",
  "entry" : [ {
    "id" : "ccc60039-b326-46f3-8954-82af4c5df07a",
    "fullUrl" : "https://dummypayerhcx/coverageeligibilityresponse/ccc60039-b326-46f3-8954-82af4c5df07a",
    "resource" : {
      "resourceType" : "CoverageEligibilityResponse",
      "id" : "ccc60039-b326-46f3-8954-82af4c5df07a",
      "meta" : {
        "profile" : [ "http://hl7.org/fhir/StructureDefinition/CoverageEligibilityResponse" ],
        "tag" : [ {
          "system" : "http://terminology.hl7.org/CodeSystem/v3-ObservationValue",
          "code" : "SUBSETTED",
          "display" : "subsetted"
        } ]
      },
      "identifier" : [ {
        "system" : "http://hip.in",
        "value" : "2c44f44a-6f3c-40fa-87cb-a2ad5294ad7e"
      } ],
      "status" : "active",
      "purpose" : [ "auth-requirements" ],
      "patient" : {
        "reference" : "urn:uuid:92ade0cb-84e7-46a1-ad48-de306f18b493"
      },
      "created" : "2025-09-11T15:50:30+05:30",
      "requestor" : {
        "reference" : "urn:uuid:2e642637-9d95-4d29-b466-ce3ee85becb0"
      },
      "request" : {
        "reference" : "urn:uuid:2c44f44a-6f3c-40fa-87cb-a2ad5294ad7e",
        "display" : "CoverageEligibilityRequest"
      },
      "outcome" : "complete",
      "insurer" : {
        "reference" : "urn:uuid:f35bef0f-06e7-406a-a1a8-9b6ed7e7dd65"
      },
      "insurance" : [ {
        "coverage" : {
          "reference" : "urn:uuid:7aef8069-43d2-4f99-a59f-446dc6601bc2"
        },
        "benefitPeriod" : {
          "start" : "2024-01-01T00:00:00+05:30",
          "end" : "2026-12-31T00:00:00+05:30"
        }
      } ]
    }
  }, {
    "id" : "2c44f44a-6f3c-40fa-87cb-a2ad5294ad7e",
    "fullUrl" : "urn:uuid:2c44f44a-6f3c-40fa-87cb-a2ad5294ad7e",
    "resource" : {
      "resourceType" : "CoverageEligibilityRequest",
      "id" : "2c44f44a-6f3c-40fa-87cb-a2ad5294ad7e",
      "meta" : {
        "profile" : [ "https://nrces.in/ndhm/fhir/r4/StructureDefinition/CoverageEligibilityRequest" ],
        "tag" : [ {
          "system" : "http://terminology.hl7.org/CodeSystem/v3-ObservationValue",
          "code" : "SUBSETTED",
          "display" : "subsetted"
        } ]
      },
      "identifier" : [ {
        "system" : "http://hip.in",
        "value" : "2c44f44a-6f3c-40fa-87cb-a2ad5294ad7e"
      } ],
      "status" : "active",
      "priority" : {
        "coding" : [ {
          "system" : "http://terminology.hl7.org/CodeSystem/processpriority",
          "code" : "normal",
          "display" : "Normal"
        } ]
      },
      "purpose" : [ "auth-requirements" ],
      "patient" : {
        "reference" : "urn:uuid:92ade0cb-84e7-46a1-ad48-de306f18b493"
      },
      "created" : "2024-12-25T14:35:31.727Z",
      "enterer" : {
        "reference" : "urn:uuid:2e642637-9d95-4d29-b466-ce3ee85becb0"
      },
      "provider" : {
        "reference" : "urn:uuid:0d33badf-6cb9-4396-bf70-834b32861328"
      },
      "insurer" : {
        "reference" : "urn:uuid:f35bef0f-06e7-406a-a1a8-9b6ed7e7dd65"
      },
      "facility" : {
        "reference" : "urn:uuid:7e26745d-9cfa-4a9a-b4a1-fe42b0f77ca0"
      },
      "insurance" : [ {
        "focal" : true,
        "coverage" : {
          "reference" : "urn:uuid:7aef8069-43d2-4f99-a59f-446dc6601bc2"
        }
      } ],
      "item" : [ {
        "productOrService" : {
          "coding" : [ {
            "system" : "http://snomed.info/sct",
            "code" : "11429006",
            "display" : "Consultation"
          } ]
        }
      } ]
    }
  }, {
    "id" : "92ade0cb-84e7-46a1-ad48-de306f18b493",
    "fullUrl" : "urn:uuid:92ade0cb-84e7-46a1-ad48-de306f18b493",
    "resource" : {
      "resourceType" : "Patient",
      "id" : "92ade0cb-84e7-46a1-ad48-de306f18b493",
      "meta" : {
        "tag" : [ {
          "system" : "http://terminology.hl7.org/CodeSystem/v3-ObservationValue",
          "code" : "SUBSETTED",
          "display" : "subsetted"
        } ]
      },
      "identifier" : [ {
        "type" : {
          "coding" : [ {
            "system" : "https://nrces.in/ndhm/fhir/r4/CodeSystem/ndhm-identifier-type-code",
            "code" : "ABHA",
            "display" : "Ayushman Bharat Health Account (ABHA) ID"
          } ]
        },
        "system" : "https://nrces.in/ndhm/fhir/r4/CodeSystem/ndhm-identifier-type-code",
        "value" : "91-3457-6405-8102"
      } ],
      "name" : [ {
        "text" : "Gautam Rawat"
      } ],
      "gender" : "male",
      "birthDate" : "1999-01-20"
    }
  }, {
    "id" : "f35bef0f-06e7-406a-a1a8-9b6ed7e7dd65",
    "fullUrl" : "urn:uuid:f35bef0f-06e7-406a-a1a8-9b6ed7e7dd65",
    "resource" : {
      "resourceType" : "Organization",
      "id" : "f35bef0f-06e7-406a-a1a8-9b6ed7e7dd65",
      "meta" : {
        "tag" : [ {
          "system" : "http://terminology.hl7.org/CodeSystem/v3-ObservationValue",
          "code" : "SUBSETTED",
          "display" : "subsetted"
        } ]
      },
      "identifier" : [ {
        "type" : {
          "coding" : [ {
            "system" : "https://nrces.in/ndhm/fhir/r4/ValueSet/ndhm-identifier-type-code",
            "code" : "FI",
            "display" : "Facility ID"
          } ]
        },
        "system" : "https://nrces.in/ndhm/fhir/r4/ValueSet/ndhm-identifier-type-code",
        "value" : "1000003503"
      } ],
      "name" : "vesak technologies",
      "telecom" : [ {
        "system" : "phone",
        "value" : "9908760036",
        "use" : "work"
      }, {
        "system" : "email",
        "value" : "vedanthpadigelwar@gmail.com",
        "use" : "work"
      } ]
    }
  }, {
    "id" : "0d33badf-6cb9-4396-bf70-834b32861328",
    "fullUrl" : "urn:uuid:0d33badf-6cb9-4396-bf70-834b32861328",
    "resource" : {
      "resourceType" : "Practitioner",
      "id" : "0d33badf-6cb9-4396-bf70-834b32861328",
      "meta" : {
        "tag" : [ {
          "system" : "http://terminology.hl7.org/CodeSystem/v3-ObservationValue",
          "code" : "SUBSETTED",
          "display" : "subsetted"
        } ]
      },
      "identifier" : [ {
        "type" : {
          "coding" : [ {
            "system" : "https://nrces.in/ndhm/fhir/r4/ValueSet/ndhm-identifier-type-code",
            "code" : "HPID",
            "display" : "Healthcare Professional ID (HPID)"
          } ]
        },
        "system" : "https://nrces.in/ndhm/fhir/r4/ValueSet/ndhm-identifier-type-code",
        "value" : "270988"
      } ],
      "name" : [ {
        "text" : "Dr. Onkar Bhave",
        "prefix" : [ "Dr" ]
      } ]
    }
  }, {
    "id" : "2e642637-9d95-4d29-b466-ce3ee85becb0",
    "fullUrl" : "urn:uuid:2e642637-9d95-4d29-b466-ce3ee85becb0",
    "resource" : {
      "resourceType" : "Practitioner",
      "id" : "2e642637-9d95-4d29-b466-ce3ee85becb0",
      "meta" : {
        "tag" : [ {
          "system" : "http://terminology.hl7.org/CodeSystem/v3-ObservationValue",
          "code" : "SUBSETTED",
          "display" : "subsetted"
        } ]
      },
      "identifier" : [ {
        "type" : {
          "coding" : [ {
            "system" : "https://nrces.in/ndhm/fhir/r4/CodeSystem/ndhm-identifier-type-code",
            "code" : "ABHA",
            "display" : "Ayushman Bharat Health Account (ABHA) ID"
          } ]
        },
        "system" : "https://nrces.in/ndhm/fhir/r4/CodeSystem/ndhm-identifier-type-code",
        "value" : "undefined"
      } ],
      "name" : [ {
        "text" : "Dr. Onkar Bhave"
      } ]
    }
  }, {
    "id" : "7e26745d-9cfa-4a9a-b4a1-fe42b0f77ca0",
    "fullUrl" : "urn:uuid:7e26745d-9cfa-4a9a-b4a1-fe42b0f77ca0",
    "resource" : {
      "resourceType" : "Location",
      "id" : "7e26745d-9cfa-4a9a-b4a1-fe42b0f77ca0",
      "meta" : {
        "tag" : [ {
          "system" : "http://terminology.hl7.org/CodeSystem/v3-ObservationValue",
          "code" : "SUBSETTED",
          "display" : "subsetted"
        } ]
      },
      "status" : "active",
      "name" : "Aarogyaid",
      "description" : " Location facility telegana",
      "type" : [ {
        "text" : "clinic"
      } ],
      "address" : {
        "city" : "telegana",
        "district" : "telegana",
        "state" : "telegana",
        "postalCode" : "926421",
        "country" : "India"
      }
    }
  }, {
    "id" : "7aef8069-43d2-4f99-a59f-446dc6601bc2",
    "fullUrl" : "urn:uuid:7aef8069-43d2-4f99-a59f-446dc6601bc2",
    "resource" : {
      "resourceType" : "Coverage",
      "id" : "7aef8069-43d2-4f99-a59f-446dc6601bc2",
      "meta" : {
        "tag" : [ {
          "system" : "http://terminology.hl7.org/CodeSystem/v3-ObservationValue",
          "code" : "SUBSETTED",
          "display" : "subsetted"
        } ]
      },
      "identifier" : [ {
        "system" : "https://xyzinsurance.in/policynumber/",
        "value" : "productIDtest"
      } ],
      "status" : "active",
      "type" : {
        "coding" : [ {
          "system" : "http://terminology.hl7.org/CodeSystem/coverage-selfpay",
          "code" : "pay",
          "display" : "PAY"
        } ]
      },
      "policyHolder" : {
        "reference" : "urn:uuid:c6f7d727-b64f-47b8-870d-face8c3a37f6"
      },
      "subscriber" : {
        "reference" : "urn:uuid:31ed5553-0453-4c76-9b86-df309842275a"
      },
      "subscriberId" : "testcust07",
      "beneficiary" : {
        "reference" : "urn:uuid:3fbd7684-cc20-498d-9813-8a0d84e1809e"
      },
      "relationship" : {
        "coding" : [ {
          "system" : "https://terminology.hl7.org/6.1.0/CodeSystem-subscriber-relationship.html",
          "code" : "Self"
        } ]
      },
      "period" : {
        "start" : "2022-12-02",
        "end" : "2022-12-02"
      },
      "payor" : [ {
        "reference" : "urn:uuid:a30eb321-c518-4bf1-8b11-d447e79ef387"
      } ],
      "class" : [ {
        "id" : "100217",
        "type" : {
          "coding" : [ {
            "system" : "http://terminology.hl7.org/CodeSystem/coverage-class",
            "code" : "plan",
            "display" : "Plan"
          } ]
        },
        "value" : "PX/HR/PX/I-ChirayuEx HR PX",
        "name" : "Coverage plan Details"
      }, {
        "id" : "PMJAY-T",
        "type" : {
          "coding" : [ {
            "system" : "http://terminology.hl7.org/CodeSystem/coverage-class",
            "code" : "subplan",
            "display" : "SubPlan"
          } ]
        },
        "value" : "500000.00",
        "name" : "Coverage Amount Details"
      } ]
    }
  }, {
    "id" : "31ed5553-0453-4c76-9b86-df309842275a",
    "fullUrl" : "urn:uuid:31ed5553-0453-4c76-9b86-df309842275a",
    "resource" : {
      "resourceType" : "Patient",
      "id" : "31ed5553-0453-4c76-9b86-df309842275a",
      "meta" : {
        "tag" : [ {
          "system" : "http://terminology.hl7.org/CodeSystem/v3-ObservationValue",
          "code" : "SUBSETTED",
          "display" : "subsetted"
        } ]
      },
      "identifier" : [ {
        "type" : {
          "coding" : [ {
            "system" : "https://nrces.in/ndhm/fhir/r4/CodeSystem/ndhm-identifier-type-code",
            "code" : "ABHA",
            "display" : "Ayushman Bharat Health Account (ABHA) ID"
          } ]
        },
        "system" : "https://nrces.in/ndhm/fhir/r4/CodeSystem/ndhm-identifier-type-code",
        "value" : "91-3457-6405-8102"
      } ],
      "name" : [ {
        "text" : "Gautam Rawat"
      } ],
      "gender" : "male",
      "birthDate" : "1999-01-20"
    }
  }, {
    "id" : "3fbd7684-cc20-498d-9813-8a0d84e1809e",
    "fullUrl" : "urn:uuid:3fbd7684-cc20-498d-9813-8a0d84e1809e",
    "resource" : {
      "resourceType" : "Patient",
      "id" : "3fbd7684-cc20-498d-9813-8a0d84e1809e",
      "meta" : {
        "tag" : [ {
          "system" : "http://terminology.hl7.org/CodeSystem/v3-ObservationValue",
          "code" : "SUBSETTED",
          "display" : "subsetted"
        } ]
      },
      "identifier" : [ {
        "type" : {
          "coding" : [ {
            "system" : "https://nrces.in/ndhm/fhir/r4/CodeSystem/ndhm-identifier-type-code",
            "code" : "ABHA",
            "display" : "Ayushman Bharat Health Account (ABHA) ID"
          } ]
        },
        "system" : "https://nrces.in/ndhm/fhir/r4/CodeSystem/ndhm-identifier-type-code",
        "value" : "91-3457-6405-8102"
      } ],
      "name" : [ {
        "text" : "Gautam Rawat"
      } ],
      "gender" : "male",
      "birthDate" : "1999-01-20"
    }
  }, {
    "id" : "a30eb321-c518-4bf1-8b11-d447e79ef387",
    "fullUrl" : "urn:uuid:a30eb321-c518-4bf1-8b11-d447e79ef387",
    "resource" : {
      "resourceType" : "Organization",
      "id" : "a30eb321-c518-4bf1-8b11-d447e79ef387",
      "meta" : {
        "tag" : [ {
          "system" : "http://terminology.hl7.org/CodeSystem/v3-ObservationValue",
          "code" : "SUBSETTED",
          "display" : "subsetted"
        } ]
      },
      "identifier" : [ {
        "type" : {
          "coding" : [ {
            "system" : "https://nrces.in/ndhm/fhir/r4/ValueSet/ndhm-identifier-type-code",
            "code" : "FI",
            "display" : "Facility ID"
          } ]
        },
        "system" : "https://nrces.in/ndhm/fhir/r4/ValueSet/ndhm-identifier-type-code",
        "value" : "1000003503"
      } ],
      "name" : "vesak technologies",
      "telecom" : [ {
        "system" : "phone",
        "value" : "9908760036",
        "use" : "work"
      }, {
        "system" : "email",
        "value" : "vedanthpadigelwar@gmail.com",
        "use" : "work"
      } ]
    }
  }, {
    "id" : "c6f7d727-b64f-47b8-870d-face8c3a37f6",
    "fullUrl" : "urn:uuid:c6f7d727-b64f-47b8-870d-face8c3a37f6",
    "resource" : {
      "resourceType" : "Patient",
      "id" : "c6f7d727-b64f-47b8-870d-face8c3a37f6",
      "meta" : {
        "tag" : [ {
          "system" : "http://terminology.hl7.org/CodeSystem/v3-ObservationValue",
          "code" : "SUBSETTED",
          "display" : "subsetted"
        } ]
      },
      "identifier" : [ {
        "type" : {
          "coding" : [ {
            "system" : "https://nrces.in/ndhm/fhir/r4/CodeSystem/ndhm-identifier-type-code",
            "code" : "ABHA",
            "display" : "Ayushman Bharat Health Account (ABHA) ID"
          } ]
        },
        "system" : "https://nrces.in/ndhm/fhir/r4/CodeSystem/ndhm-identifier-type-code",
        "value" : "91-3457-6405-8102"
      } ],
      "name" : [ {
        "text" : "Gautam Rawat"
      } ],
      "gender" : "male",
      "birthDate" : "1999-01-20"
    }
  } ]
}